File: examples/output/analysis/Standard XAFS spectra of oxides/Cu2O.nor
# XDI/1.0 Athena/0.9.26
# Element.edge:                  K
# Element.symbol:                Cu
# Column.1:                      energy eV
# Column.2:                      norm
# Column.3:                      nbkg
# Column.4:                      flat
# Column.5:                      fbkg
# Column.6:                      nder
# Column.7:                      nsec
# Athena.e0:                     8978.207
# Athena.eshift:                 0
# Athena.rbkg:                   1.0
# Athena.importance:             1
# Athena.standard:               None
# Athena.bkg_kweight:            1
# Athena.edge_step:              1.11012
# Athena.fixed_step:             no
# Athena.pre_edge_range:         -150 -75
# Athena.pre_edge_line:          6.015441 - 0.000662077 * E
# Athena.normalization_range:    150 692.0118
# Athena.post_edge_polynomial:   28.6594 - 0.00505437 * E + 2.22076e-07 * E^2 + 0 * E^3
# Athena.spline_range_energy:    0.952 792.015
# Athena.clamps:                 0 24
# Athena.spline_range_k:         0.500 14.418
# Athena.kweight:                2
# Athena.window:                 kaiser-bessel
# Athena.phase_correction:       no
# Athena.k_range:                2 14.418
# Athena.dk:                     0
# Athena.r_range:                1 3
# Athena.dr:                     0
# Athena.window:                 kaiser-bessel
# Athena.plot_multiplier:        1
# Athena.y_offset:               0
# ///
#------------------------
#   e         norm       nbkg       flat       fbkg       nder       nsec
  8770.2      -0.000160454  -0.000160454  -0.000160454  -0.000160454   9.01835e-05  -2.55994e-06
  8790.21       0.00113149   0.00113149   0.00113149   0.00113149   5.30244e-05  -2.39736e-06
  8810.2       0.00146377   0.00146377   0.00146377   0.00146377  -0.000152585  -3.11449e-06
  8830.21       0.000548872   0.000548872   0.000548872   0.000548872   7.34246e-05   7.13719e-07
  8850.21      -8.03129e-05  -8.03129e-05  -8.03129e-05  -8.03129e-05  -8.77647e-05   2.5486e-06
  8870.21       0.000310568   0.000310568   0.000310568   0.000310568   8.80045e-05  -1.58393e-06
  8890.2       6.79846e-05   6.79846e-05   6.79846e-05   6.79846e-05   2.15164e-06  -3.24972e-06
  8910.2      -0.00147519  -0.00147519  -0.00147519  -0.00147519  -0.000191689  -6.84377e-06
  8930.21      -0.00575688  -0.00575688  -0.00575688  -0.00575688  -0.000148682   1.29516e-05
  8950.2      -0.00485596  -0.00485596  -0.00485596  -0.00485596   0.000120737  -9.28065e-07
  8951.2      -0.00482081  -0.0048208  -0.0048208  -0.0048208   0.00051706   0.000192551
  8952.22      -0.00458319  -0.00458319  -0.00458319  -0.00458319  -0.000133987  -0.000764862
  8953.22      -0.00510994  -0.00510994  -0.00510994  -0.00510994   0.00037333   0.00127619
  8954.21      -0.00437055  -0.00437055  -0.00437055  -0.00437055   0.000131157  -0.00032969
  8955.21      -0.00395829  -0.00395829  -0.00395829  -0.00395829   0.0010397  -0.000421474
  8956.21      -0.00396423  -0.00396423  -0.00396423  -0.00396423  -0.000378669   0.000297264
  8957.2      -0.00367521  -0.00367521  -0.00367521  -0.00367521   0.000353557   8.26647e-05
  8958.2      -0.00330384  -0.00330384  -0.00330384  -0.00330384   0.000392585  -0.000158441
  8959.22      -0.00308407  -0.00308407  -0.00308407  -0.00308407   0.000115327   0.000195315
  8960.22      -0.00267073  -0.00267073  -0.00267073  -0.00267073   0.000462445   0.000139729
  8961.22      -0.00211828  -0.00211828  -0.00211828  -0.00211828   0.000739945   9.34729e-05
  8962.21      -0.00147233  -0.00147233  -0.00147233  -0.00147233   0.000548838   7.21219e-05
  8963.21      -0.000754463  -0.000754463  -0.000754463  -0.000754463   0.000826393   0.000265947
  8964.21       0.000227949   0.000227949   0.000227949   0.000227949   0.000946409  -6.26639e-05
  8965.21       0.00114797   0.00114797   0.00114797   0.00114797   0.00100747   0.000237912
  8966.21       0.00230486   0.00230486   0.00230486   0.00230486   0.00139854   0.000347253
  8967.21       0.00380962   0.00380962   0.00380962   0.00380962   0.00138231  -7.80833e-05
  8968.21       0.00523637   0.00523637   0.00523637   0.00523637   0.00166425   0.000461854
  8969.2       0.00712405   0.00712405   0.00712405   0.00712405   0.0023582   0.00101341
  8970.2       0.0100241   0.0100241   0.0100241   0.0100241   0.00315348   0.000304592
  8971.2       0.0132314   0.0132314   0.0132314   0.0132314   0.00349433   0.000869674
  8972.2       0.0173084   0.0173084   0.0173084   0.0173084   0.00489192   0.00241485
  8973.2       0.0238001   0.0238001   0.0238001   0.0238001   0.00863005   0.00410727
  8974.2       0.0343992   0.0343992   0.0343992   0.0343992   0.0116296   0.00328174
  8975.2       0.0482972   0.0482972   0.0482972   0.0482972   0.0195702   0.0148752
  8976.21       0.0770852   0.0770852   0.0770852   0.0770852   0.042745   0.0837126
  8977.21       0.189753       0.189753       0.189753       0.189753       0.183868       0.10814
  8978.21       0.410756       0.410756       0.410756       0.410756       0.228938      -0.0368904
  8979.21       0.594966       0.335572       0.595331       0.335937       0.0806707  -0.23643
  8980.21       0.541853       0.490978       0.542582       0.491707      -0.110679      -0.0242299
  8981.21       0.464395       0.559532       0.465488       0.560625      -0.0252408   0.0829509
  8982.21       0.470216       0.621378       0.471674       0.622836       0.0263586   0.0350491
  8983.22       0.511254       0.676742       0.513075       0.678563       0.0647238   0.0301115
  8984.22       0.582588       0.726065       0.584772       0.728249       0.0579594  -0.0182145
  8985.22       0.635607       0.769642       0.638154       0.772189       0.0520731   0.0063126
  8986.2       0.693294       0.806802       0.696194       0.809702       0.0637554   0.00648369
  8987.2       0.759066       0.840074       0.762328       0.843336       0.0771494   0.0190997
  8988.2       0.843984       0.86858       0.847607       0.872204       0.0803288   0.00247131
  8989.21       0.931476       0.892722       0.935462       0.896707       0.0952162   0.00639721
  8990.21        1.02542       0.912813        1.02976       0.91716       0.0847936  -0.0339579
  8991.22        1.08519       0.929212        1.0899       0.93392       0.0359086  -0.0343241
  8992.22        1.11028       0.942231        1.11535       0.9473       0.0194675  -0.00999149
  8993.2        1.12489       0.951997        1.1303       0.957416       0.00721524  -0.0236922
  8994.2        1.11666       0.959398        1.12244       0.965177      -0.0311189  -0.0357319
  8995.21        1.07231       0.964461        1.07845       0.9706      -0.0420747   0.00312622
  8996.21        1.03116       0.967521        1.03766       0.974018      -0.0435097  -0.00237589
  8997.22       0.987563       0.968928       0.99442       0.975785      -0.0413621   0.00456443
  8998.2       0.949686       0.969039       0.956891       0.976245      -0.0314058   0.0166189
  8999.2       0.927052       0.968197       0.934616       0.975761      -0.0171736   0.00942367
  9000.21       0.913947       0.966727       0.921869       0.97465      -0.00694863   0.0125779
  9001.22       0.91358       0.964977       0.921861       0.973257       0.00639134   0.0108511
  9002.22       0.924205       0.963241       0.932842       0.971878       0.0108244   0.000294422
  9003.2       0.934832       0.96162       0.943817       0.970605       0.0113691   0.000551363
  9004.21       0.946315       0.960025       0.955657       0.969367       0.0125409   0.0028546
  9005.22       0.960706       0.958499       0.970404       0.968197       0.014528  -0.000523543
  9006.22       0.974566       0.957043       0.98462       0.967097       0.01329  -0.000390391
  9007.2       0.987661       0.955692       0.998061       0.966092       0.0125622  -0.00355845
  9008.21       0.997521       0.954368        1.00828       0.965123       0.00534837  -0.0089434
  9009.22       0.998289       0.953108        1.0094       0.964219      -0.00184885  -0.00443852
  9010.2       0.994768       0.951945        1.00622       0.963401      -0.00333865  -0.000626141
  9014.21       0.974045       0.947794       0.986908       0.960657      -0.0133545  -0.00282558
  9018.22       0.908165       0.944553       0.922428       0.958816      -0.0113089   0.00223433
  9022.21       0.878444       0.942152       0.894094       0.957802      -0.00449593   0.00126562
  9026.2       0.868852       0.940489       0.885883       0.95752      -0.00073055   0.0011065
  9030.22       0.87696       0.939478       0.895378       0.957896       0.00539106   0.00142961
  9034.22       0.908026       0.939054       0.927814       0.958842       0.00797573  -6.9043e-05
  9038.2       0.937811       0.939124       0.958955       0.960269       0.00829787   0.000214042
  9042.2       0.971239       0.93961       0.993744       0.962115       0.00630887  -0.00153039
  9046.21       0.980105       0.94043        1.00397       0.964291      -0.00258333  -0.00155637
  9050.2       0.964038       0.941496       0.989239       0.966697      -0.00239647   0.000835673
  9054.21       0.961221       0.94274       0.987767       0.969286      -0.000105685  -1.12551e-05
  9058.21       0.958241       0.944063       0.986117       0.97194      -0.00132223  -7.32898e-07
  9062.2       0.955246       0.945394       0.984448       0.974596       0.000538922   0.000595838
  9066.2       0.961775       0.946649       0.992297       0.977171       0.0023002   0.000191324
  9070.2       0.971375       0.947752        1.00321       0.979589       0.00202968  -0.000204677
  9074.21       0.9777       0.948679        1.01085       0.981826       0.00107219  -0.000201687
  9078.22       0.980811       0.949438        1.01526       0.983889       0.000578777  -0.000196428
  9082.21       0.980762       0.95003        1.0165       0.985771      -0.000979351  -0.000545615
  9086.22       0.971972       0.950471        1.00901       0.987506      -0.00327189  -0.000566817
  9090.22       0.954145       0.950762       0.992459       0.989076      -0.00481309  -4.02339e-05
  9094.21       0.935657       0.950911       0.975246       0.9905      -0.0043334   0.000251145
  9098.21       0.921168       0.950927       0.962025       0.991785      -0.0029558   0.000432022
  9102.21       0.913589       0.950816       0.95571       0.992937      -0.000927374   0.000540453
  9106.22       0.914675       0.950584       0.958055       0.993964       0.00133183   0.0003951
  9110.2       0.922018       0.950242       0.966642       0.994865       0.00260037   0.000230922
  9114.22       0.933138       0.94979       0.979009       0.995662       0.00221272  -0.00032569
  9118.21       0.939009       0.949242       0.986114       0.996348       0.000842642  -0.000219572
  9122.2       0.941362       0.948603       0.989695       0.996937       0.00057556  -2.78566e-05
  9126.2       0.943271       0.947878       0.992828       0.997435       0.00029584  -3.25674e-05
  9130.2       0.944662       0.947074       0.995437       0.997849       0.000384834   7.47049e-05
  9134.2       0.947251       0.9462       0.999238       0.998187       0.00105194   0.000159566
  9138.21       0.952403       0.94526        1.0056       0.998454       0.0010717  -0.000214144
  9142.22       0.95414       0.944262        1.00854       0.998658      -0.000182294  -0.000288402
  9146.2       0.951256       0.943221        1.00684       0.998805      -0.00113761  -0.000124608
  9150.22       0.946353       0.942129        1.00313       0.998904      -0.0012736  -2.88146e-05
  9154.21       0.941017       0.941007       0.998969       0.99896      -0.00115508   8.2391e-05
  9158.21       0.936992       0.939857       0.996116       0.998981      -0.00070495   0.000139947
  9162.21       0.935201       0.938684       0.995491       0.998974      -0.000237146   0.000133557
  9166.21       0.935548       0.937494       0.997       0.998946       0.000178838   2.0541e-05
  9170.22       0.936225       0.936297       0.998832       0.998904       0.000131071  -1.8293e-05
  9174.2       0.936605       0.935106        1.00035       0.998856       8.04417e-05   7.80641e-06
  9178.21       0.937114       0.933912        1.00201       0.998807       0.000119583   3.3196e-07
  9182.2       0.937624       0.932738        1.00365       0.998764       4.25659e-05  -4.20289e-05
  9186.22       0.937465       0.931566        1.00462       0.998725      -5.16616e-05  -6.18835e-05
  9190.22       0.936318       0.930413        1.0046       0.998693      -0.000417687  -2.84056e-05
  9194.22       0.934717       0.92927        1.00411       0.998666      -0.000417977  -4.65712e-05
  9198.22       0.932369       0.928138        1.00287       0.998644      -0.000582477   7.04978e-06
  9202.2       0.930148       0.927025        1.00175       0.998627      -0.000588083  -3.58549e-05
  9206.21       0.927332       0.925914        1.00003       0.998614      -0.000838557  -2.13193e-05
  9210.22       0.924173       0.924812       0.997967       0.998606      -0.000801378   8.43556e-06
  9214.21       0.921169       0.923729       0.996043       0.998603      -0.000736045   2.98145e-05
  9218.2       0.918638       0.922655       0.994586       0.998604      -0.000632496   3.07416e-05
  9222.22       0.916579       0.921583       0.993605       0.998609      -0.000313963   6.41679e-05
  9226.22       0.915566       0.920528       0.993656       0.998617      -0.000232537   1.6862e-05
  9230.22       0.914823       0.919482       0.99397       0.99863      -5.33707e-05   1.95036e-05
  9234.2       0.914392       0.918453       0.994585       0.998646      -0.000215532   1.61273e-05
  9238.21       0.914217       0.917425       0.995457       0.998665       0.000103926   2.2334e-05
  9242.22       0.914402       0.916406       0.996683       0.998688       0.000117695   3.62233e-07
  9246.21       0.91459       0.915403       0.997901       0.998714       3.25248e-05  -2.86484e-05
  9250.2       0.91432       0.914408       0.998654       0.998742       3.70841e-06   3.25281e-06
  9254.22       0.9141       0.913415       0.999459       0.998773      -0.000202253  -1.46248e-05
  9258.22       0.913647       0.912436        1.00002       0.998807      -0.000138517   2.55755e-05
  9262.22       0.913604       0.911465        1.00098       0.998843      -4.75669e-05  -1.25496e-05
  9266.22       0.913359       0.910503        1.00174       0.998882      -3.30814e-05   1.81189e-05
  9270.2       0.913404       0.909554        1.00277       0.998922      -0.000227211  -7.74072e-05
  9274.21       0.912205       0.908606        1.00256       0.998964      -0.000202374   2.02403e-05
  9278.2       0.911335       0.907673        1.00267       0.999007      -0.000341811  -6.15818e-05
  9282.21       0.909464       0.906739        1.00178       0.999053      -0.000271392   3.81593e-05
  9286.21       0.908213       0.905819        1.00149       0.999099      -0.000394704  -4.98272e-06
  9290.2       0.906882       0.904906        1.00112       0.999147      -0.000266919   9.54274e-06
  9294.2       0.905701       0.904        1.0009       0.999196      -0.000273798   1.76682e-05
  9298.2       0.904803       0.9031        1.00095       0.999246      -0.000222393  -1.45261e-05
  9302.21       0.903671       0.902206        1.00076       0.999296      -0.000293862   1.42665e-05
  9306.22       0.902767       0.901319        1.00079       0.999347      -0.00024748  -2.18649e-05
  9310.2       0.901522       0.900444        1.00048       0.999397      -0.000271025   2.1913e-05
  9314.22       0.90062       0.899568        1.0005       0.999449      -0.000278536  -1.2832e-05
  9318.21       0.89952       0.898704        1.00032       0.999499      -0.000268947   1.15605e-05
  9322.2       0.898604       0.897845        1.00031       0.99955      -0.000285093  -8.16649e-06
  9326.2       0.897558       0.896992        1.00017       0.999601      -0.000221734   1.46727e-05
  9330.2       0.896745       0.896144        1.00025       0.999651      -0.000235294  -1.39387e-05
  9334.21       0.895708       0.895301        1.00011       0.9997      -0.000191314   2.01899e-05
  9338.21       0.894994       0.894463        1.00028       0.999748      -0.000224837  -2.24344e-05
  9342.22       0.893921       0.893629        1.00009       0.999796      -0.000242303   1.10109e-05
  9346.21       0.893032       0.892807        1.00007       0.999842      -0.000225082  -1.07483e-05
  9350.2       0.891971       0.891989       0.999869       0.999888      -0.000188867   1.42242e-05
  9354.22       0.891131       0.89117       0.999894       0.999933      -0.000247523  -1.07839e-05
  9358.21       0.890125       0.890362       0.999739       0.999977      -0.000209133  -8.23754e-07
  9362.21       0.889104       0.889559       0.999565        1.00002      -0.000258764  -5.73896e-07
  9366.21       0.888074       0.88876       0.999375        1.00006      -0.000364943  -3.83564e-05
  9370.22       0.886427       0.887966       0.998563        1.0001      -0.000272572   5.5225e-05
  9374.2       0.885672       0.887182       0.998631        1.00014      -0.000222488   7.49751e-07
  9378.21       0.884923       0.886398       0.998705        1.00018      -0.000137552   3.46638e-06
  9382.2       0.884234       0.885623       0.998828        1.00022      -0.000327523  -2.32375e-05
  9386.22       0.883167       0.884848       0.998573        1.00025      -0.000297578  -6.59875e-06
  9390.21       0.882002       0.884082       0.998208        1.00029      -0.000278422   3.99955e-05
  9394.21       0.881479       0.883322       0.99848        1.00032      -0.000168206  -3.758e-05
  9398.21       0.880354       0.882565       0.998144        1.00036      -0.000181127   2.70756e-05
  9402.21       0.879663       0.881813       0.998236        1.00039      -0.000171765   3.44276e-05
  9406.21       0.879519       0.881066       0.998869        1.00042       2.41687e-07  -3.455e-05
  9410.22       0.878819       0.880323       0.998941        1.00044      -0.00022842  -2.29284e-05
  9414.21       0.877758       0.87959       0.99864        1.00047      -0.000278175   1.32881e-05
  9418.22       0.8769       0.878856       0.998542        1.0005      -4.52946e-05   6.11999e-05
  9422.21       0.877029       0.878131       0.99942        1.00052      -0.000177501  -6.00791e-05
  9426.21       0.876201       0.877411       0.999335        1.00054      -5.12451e-05   3.0247e-05
  9430.2       0.875856       0.876696       0.999726        1.00057      -8.79001e-05   4.36313e-06
  9434.2       0.875579       0.875984        1.00018        1.00059      -6.30557e-05  -1.18332e-05
  9438.21       0.875113       0.875277        1.00044        1.0006      -0.000132082   8.47728e-07
  9442.21       0.87466       0.874574        1.00071        1.00062      -0.000109505  -1.0864e-06
  9446.19       0.874193       0.87388        1.00095        1.00064      -0.000130623  -5.37387e-06
  9450.21       0.873636       0.873185        1.0011        1.00065      -9.14758e-05   1.10026e-06
  9454.2       0.873101       0.8725        1.00126        1.00066      -0.000163281  -1.42963e-06
  9458.22       0.872537       0.871813        1.0014        1.00067      -0.000184272  -1.41794e-05
  9462.21       0.871752       0.871136        1.0013        1.00068      -0.000172125   8.18092e-07
  9466.21       0.870979       0.870463        1.0012        1.00069      -0.000243473  -9.59525e-06
  9470.21       0.870052       0.869794        1.00095        1.00069      -0.000191065   2.31458e-05
  9474.21       0.869495       0.869129        1.00106        1.00069      -0.000189066  -2.14438e-05
  9478.22       0.868596       0.868468        1.00082        1.00069      -0.000182487   1.23739e-05
  9482.2       0.867901       0.867816        1.00078        1.00069      -0.000188767   2.41266e-06
  9486.21       0.867239       0.867162        1.00077        1.00069      -0.000178093   3.70881e-06
  9490.2       0.86664       0.866518        1.00081        1.00069      -0.000183351  -7.596e-06
  9494.22       0.865913       0.865873        1.00072        1.00068      -0.000131901   1.54059e-05
  9498.21       0.865436       0.865236        1.00087        1.00067      -0.000133079  -3.67438e-06
  9502.21       0.864901       0.864603        1.00096        1.00066      -0.000128544  -1.70544e-06
  9506.21       0.864338       0.863974        1.00101        1.00065      -0.000132711   3.22815e-06
  9510.21       0.863826       0.863349        1.00111        1.00063      -0.000124598   1.08532e-05
  9514.22       0.863488       0.862727        1.00137        1.00061      -0.000107325  -1.14831e-06
  9518.2       0.863134       0.862114        1.00161        1.00059      -6.46506e-05   5.00808e-07
  9522.21       0.862785       0.8615        1.00186        1.00057      -0.00012521  -1.59321e-05
  9526.2       0.862183       0.860895        1.00184        1.00055      -9.26451e-05   2.12555e-05
  9530.22       0.861917       0.860288        1.00215        1.00052      -0.000126407  -3.16497e-05
  9534.22       0.861149       0.859689        1.00196        1.0005      -0.000133821   1.78796e-05
  9538.21       0.860665       0.859095        1.00204        1.00047      -0.00011035   1.25001e-05
  9542.21       0.860381       0.858505        1.00231        1.00043      -0.00015946   6.80727e-06
  9546.21       0.860205       0.85792        1.00269        1.0004       3.1574e-06  -4.51374e-05
  9550.22       0.859306       0.85734        1.00233        1.00037      -0.000212633   2.85261e-05
  9554.2       0.858867       0.85677        1.00243        1.00033      -0.000218724  -4.50606e-05
  9558.21       0.857699       0.856201        1.0018        1.0003      -0.000218115   1.04624e-05
  9562.2       0.856705       0.855643        1.00133        1.00027      -0.000240306   2.5422e-05
  9566.22       0.856113       0.855087        1.00126        1.00023      -0.000101681  -2.67724e-05
  9570.21       0.855099       0.854543        1.00076        1.0002      -0.000211303   3.82832e-05
  9574.21       0.854696       0.854006        1.00086        1.00017      -0.000186002  -1.27197e-05
  9578.21       0.854088       0.853477        1.00075        1.00014      -0.000192533  -4.43545e-05
  9582.21       0.852769       0.852956       0.999931        1.00012      -0.000386291  -4.16111e-05
  9586.21       0.850782       0.852444       0.998433        1.00009      -0.000352179   0.000107331
  9590.22       0.850519       0.85194       0.998651        1.00007      -0.000442142  -0.000112365
  9594.21       0.848476       0.85145       0.997082        1.00006      -5.48937e-05   0.000162949
  9598.22       0.849043       0.850966       0.998119        1.00004      -0.00016808  -0.000129932
  9602.21       0.84754       0.850496       0.997077        1.00003      -0.00022888   4.73805e-05
  9606.2       0.846796       0.850036       0.996789        1.00003      -3.55642e-05  -2.18115e-05
  9610.23       0.845695       0.849583       0.99614        1.00003      -0.000304678   7.0614e-05
  9614.22       0.84573       0.849145       0.996618        1.00003      -4.17004e-05  -2.16021e-05
  9618.22       0.845419       0.848719       0.996745        1.00004       1.60742e-05   1.61074e-05
  9622.2       0.845367       0.848308       0.99712        1.00006      -8.08097e-05   1.79978e-05
  9626.21       0.845603       0.847906       0.997781        1.00008      -8.60023e-07  -2.49949e-05
  9630.22       0.845441       0.847517       0.998037        1.00011       3.50943e-05   6.90578e-07
  9634.2       0.845291       0.847144       0.998296        1.00015      -7.39645e-06  -8.14162e-06
  9638.22       0.845008       0.846781       0.99842        1.00019      -2.03301e-05   3.72655e-05
  9642.21       0.845319       0.846436       0.999129        1.00025       0.000108944   1.75773e-05
  9646.2       0.845912       0.846104        1.00011        1.00031       6.28294e-05  -4.68779e-05
  9650.2       0.845756       0.845788        1.00034        1.00037       3.95773e-05   1.15831e-05
  9654.2       0.845786       0.845486        1.00075        1.00045      -1.89163e-05   8.10689e-05
  9658.2       0.847114       0.8452        1.00245        1.00054       0.000132063  -0.000117852
  9662.21       0.846552       0.844929        1.00226        1.00064      -2.50602e-05   2.57411e-05
  9666.21       0.846403       0.844675        1.00247        1.00074      -8.29572e-05  -1.87615e-05
  9670.2       0.845956       0.84444        1.00237        1.00086      -6.96937e-05   3.9147e-05
  9674.21       0.846131       0.84422        1.0029        1.00099       9.31227e-05   4.44455e-06
  9678.2       0.846376       0.844018        1.00348        1.00113      -2.79781e-05  -3.44668e-05
  9682.22       0.84607       0.843834        1.00351        1.00128      -0.000128699  -1.7002e-05
  9686.22       0.845495       0.843668        1.00327        1.00144      -9.65659e-05   1.18695e-05
  9690.21       0.84511       0.843522        1.0032        1.00161      -7.64886e-05   9.39183e-06
  9694.22       0.844874       0.843394        1.00328        1.0018      -1.7738e-05   4.51983e-06
  9698.22       0.844711       0.843285        1.00343        1.002      -5.62051e-05  -6.33734e-06
  9702.2       0.844447       0.843197        1.00346        1.00221      -4.57796e-05   1.09218e-05
  9706.21       0.844357       0.843129        1.00367        1.00244      -2.07093e-05   6.02655e-06
  9710.22       0.844364       0.843081        1.00397        1.00269       3.17593e-06   5.52106e-06
  9714.21       0.844458       0.843054        1.00435        1.00294       7.57028e-07  -8.14122e-06
  9718.19       0.844424       0.843048        1.00459        1.00321       3.64028e-05   1.15025e-05
  9722.22       0.844575       0.843064        1.00501        1.0035       1.31019e-05  -3.00322e-06
  9726.21       0.844677       0.843103        1.00538        1.0038       1.05332e-05  -6.07452e-06
  9730.21       0.844682       0.843163        1.00564        1.00412      -1.64329e-05  -2.7021e-06
  9734.21       0.844644       0.843246        1.00585        1.00445       2.8602e-05   3.43578e-06
  9738.22       0.844661       0.843353        1.00611        1.00481       9.83186e-06  -1.02549e-06
  9742.2       0.844661       0.843482        1.00635        1.00517       7.97019e-06   3.55016e-06
  9746.21       0.844718       0.843637        1.00664        1.00556      -3.7332e-05  -1.23885e-05
  9750.22       0.844576       0.843816        1.00672        1.00596       1.89773e-05   9.15444e-06
  9754.21       0.844579       0.844018        1.00695        1.00639      -1.63867e-05  -9.25491e-07
  9758.2       0.844569       0.844245        1.00715        1.00682       8.11898e-06  -1.5078e-06
  9762.22       0.844533       0.8445        1.00732        1.00729      -2.57508e-05  -7.30484e-06
  9766.22       0.844382       0.844779        1.00737        1.00777      -5.86566e-06   1.26682e-05
  9770.22       0.844432       0.845084        1.00761        1.00826      -5.21204e-06  -8.87759e-06