File: examples/output/analysis/Standard XAFS spectra of oxides/CuO.nor
# XDI/1.0 Athena/0.9.26
# Element.edge:                  K
# Element.symbol:                Cu
# Column.1:                      energy eV
# Column.2:                      norm
# Column.3:                      nbkg
# Column.4:                      flat
# Column.5:                      fbkg
# Column.6:                      nder
# Column.7:                      nsec
# Athena.e0:                     8981.251
# Athena.eshift:                 0
# Athena.rbkg:                   1.0
# Athena.importance:             1
# Athena.standard:               None
# Athena.bkg_kweight:            1
# Athena.edge_step:              0.6384147
# Athena.fixed_step:             no
# Athena.pre_edge_range:         -150 -75
# Athena.pre_edge_line:          6.214196 - 0.000693142 * E
# Athena.normalization_range:    150 689.508
# Athena.post_edge_polynomial:   19.4115 - 0.003541 * E + 1.61393e-07 * E^2 + 0 * E^3
# Athena.spline_range_energy:    0.952 789.490
# Athena.clamps:                 0 24
# Athena.spline_range_k:         0.500 14.395
# Athena.kweight:                2
# Athena.window:                 kaiser-bessel
# Athena.phase_correction:       no
# Athena.k_range:                2 14.395
# Athena.dk:                     0
# Athena.r_range:                1 3
# Athena.dr:                     0
# Athena.window:                 kaiser-bessel
# Athena.plot_multiplier:        1
# Athena.y_offset:               0
# ///
#------------------------
#   e         norm       nbkg       flat       fbkg       nder       nsec
  8770.74       0.0117273   0.0117273   0.0117273   0.0117273  -7.20182e-05  -1.76914e-06
  8780.74       0.0110067   0.0110067   0.0110067   0.0110067  -8.97198e-05   3.17872e-06
  8790.75       0.00993216   0.00993216   0.00993216   0.00993216  -8.41583e-06  -7.60985e-06
  8800.75       0.0108384   0.0108384   0.0108384   0.0108384  -0.000241932  -1.9355e-05
  8810.74       0.00509447   0.00509447   0.00509447   0.00509447  -0.000395441   2.03541e-06
  8820.76       0.00292303   0.00292303   0.00292303   0.00292303  -0.00020119   1.63617e-05
  8830.75       0.0010689   0.00106889   0.00106889   0.00106889  -6.80621e-05   3.93737e-06
  8840.74       0.00156352   0.00156352   0.00156352   0.00156352  -0.000122543  -4.48194e-06
  8850.75      -0.00138124  -0.00138124  -0.00138124  -0.00138124  -0.000157675   8.05966e-06
  8860.75      -0.00159213  -0.00159213  -0.00159213  -0.00159213   3.87609e-05   1.1073e-05
  8870.75      -0.00060579  -0.00060579  -0.00060579  -0.00060579   6.38515e-05  -8.48856e-07
  8880.75      -0.000315294  -0.000315294  -0.000315294  -0.000315294   2.17864e-05  -1.25567e-06
  8890.74      -0.000170298  -0.000170298  -0.000170298  -0.000170298   3.87517e-05   1.76629e-06
  8900.76       0.000460081   0.000460081   0.000460081   0.000460081   5.71277e-05   2.16775e-06
  8910.74       0.000972256   0.000972255   0.000972256   0.000972255   8.21066e-05   3.34183e-06
  8920.75       0.00210157   0.00210157   0.00210157   0.00210157   0.000123938   6.55654e-06
  8930.75       0.00345223   0.00345223   0.00345223   0.00345223   0.000213302   1.08578e-05
  8940.75       0.00636782   0.00636782   0.00636782   0.00636782   0.000341105   1.092e-05
  8950.74       0.0102717   0.0102717   0.0102717   0.0102717   0.000431618   5.94586e-05
  8951.24       0.0108956   0.0108956   0.0108956   0.0108956   0.000964838   0.000138316
  8951.74       0.0112318   0.0112318   0.0112318   0.0112318   0.000569256  -0.000155893
  8952.26       0.0114782   0.0114782   0.0114782   0.0114782   0.000805281   0.000393021
  8952.76       0.0120551   0.0120551   0.0120551   0.0120551   0.000971081   0.000245498
  8953.26       0.0124445   0.0124445   0.0124445   0.0124445   0.00104958  -4.71045e-06
  8953.76       0.0131006   0.0131006   0.0131006   0.0131006   0.000966389  -0.000425526
  8954.25       0.0134072   0.0134072   0.0134072   0.0134072   0.00062571  -0.000219096
  8954.75       0.0137239   0.0137239   0.0137239   0.0137239   0.000748148   0.000214745
  8955.25       0.0141524   0.0141524   0.0141524   0.0141524   0.000839617  -0.000180516
  8955.75       0.0145602   0.0145602   0.0145602   0.0145602   0.000568335  -6.08072e-05
  8956.25       0.0147185   0.0147185   0.0147185   0.0147185   0.000779047   0.000376563
  8956.75       0.0153362   0.0153362   0.0153362   0.0153362   0.00094343   9.29584e-05
  8957.24       0.0156583   0.0156582   0.0156582   0.0156582   0.000871643  -0.000221838
  8957.74       0.0162045   0.0162045   0.0162045   0.0162045   0.000722457  -0.000218463
  8958.24       0.0163779   0.0163779   0.0163779   0.0163779   0.000654032   0.000417966
  8958.74       0.0168566   0.0168566   0.0168566   0.0168566   0.00113921   0.000486825
  8959.24       0.0175137   0.0175137   0.0175137   0.0175137   0.0011394  -0.000253563
  8959.76       0.0180238   0.0180238   0.0180238   0.0180238   0.000879461  -0.000347674
  8960.26       0.0184146   0.0184146   0.0184146   0.0184146   0.00078324   7.19564e-05
  8960.76       0.0188048   0.0188048   0.0188048   0.0188048   0.000951209   0.000522991
  8961.26       0.019364   0.019364   0.019364   0.019364   0.00130524   0.000267568
  8961.76       0.0201061   0.0201061   0.0201061   0.0201061   0.00121797  -0.000201674
  8962.26       0.0205784   0.0205784   0.0205784   0.0205784   0.00110415   6.04204e-05
  8962.75       0.0212081   0.0212081   0.0212081   0.0212081   0.00127828   0.000248313
  8963.25       0.0218542   0.0218542   0.0218542   0.0218542   0.00135196   0.000285773
  8963.75       0.0225574   0.0225574   0.0225574   0.0225574   0.00156348   0.000126086
  8964.25       0.0234131   0.0234131   0.0234131   0.0234131   0.00147768  -0.000210072
  8964.75       0.0240323   0.0240323   0.0240323   0.0240323   0.00135381   0.000348649
  8965.25       0.0247656   0.0247656   0.0247656   0.0247656   0.00182598   0.000517481
  8965.75       0.0258546   0.0258546   0.0258546   0.0258546   0.00187025   6.28118e-05
  8966.25       0.0266321   0.0266321   0.0266321   0.0266321   0.00188867   0.000246744
  8966.75       0.0277397   0.0277397   0.0277397   0.0277397   0.00211653   0.000682985
  8967.25       0.0287467   0.0287467   0.0287467   0.0287467   0.00257104   0.000774423
  8967.75       0.0303081   0.0303081   0.0303081   0.0303081   0.00289018  -0.00017184
  8968.25       0.0316311   0.0316311   0.0316311   0.0316311   0.00239954  -0.000649303
  8968.75       0.0327053   0.0327053   0.0327053   0.0327053   0.00224152   0.000499292
  8969.24       0.0338704   0.0338704   0.0338704   0.0338704   0.00289834   0.00101673
  8969.74       0.0356007   0.0356007   0.0356007   0.0356007   0.00325724   0.000325538
  8970.24       0.0371276   0.0371276   0.0371276   0.0371276   0.00322388   0.000484896
  8970.74       0.0388217   0.0388217   0.0388217   0.0388217   0.0037417   0.00132623
  8971.24       0.040866   0.040866   0.040866   0.040866   0.00454891   0.000831054
  8971.74       0.0433706   0.0433706   0.0433706   0.0433706   0.00457275  -7.71834e-05
  8972.24       0.0454387   0.0454387   0.0454387   0.0454387   0.00447173   0.00153225
  8972.74       0.0478423   0.0478423   0.0478423   0.0478423   0.006105   0.00456494
  8973.24       0.0515437   0.0515437   0.0515437   0.0515437   0.00903666   0.00637915
  8973.74       0.056879   0.056879   0.056879   0.056879   0.0124841   0.00739418
  8974.24       0.0640279   0.0640279   0.0640279   0.0640279   0.0164308   0.00455738
  8974.74       0.0733098   0.0733098   0.0733098   0.0733098   0.0170415  -0.00262597
  8975.24       0.0810847   0.0810847   0.0810847   0.0810847   0.0138025  -0.0079717
  8975.74       0.0871248   0.0871248   0.0871248   0.0871248   0.00906265  -0.0061779
  8976.24       0.0901474   0.0901474   0.0901474   0.0901474   0.00762461   0.0056525
  8976.75       0.094757   0.094757   0.094757   0.094757   0.0147208   0.0199685
  8977.25       0.104883       0.104883       0.104883       0.104883       0.0276131   0.019953
  8977.75       0.122398       0.122398       0.122398       0.122398       0.0346938   0.00608678
  8978.25       0.139611       0.139611       0.139611       0.139611       0.033706   0.000579531
  8978.75       0.156137       0.156137       0.156137       0.156137       0.0352739   0.0147308
  8979.25       0.174952       0.174952       0.174952       0.174952       0.0484648   0.0520065
  8979.75       0.204694       0.204694       0.204694       0.204694       0.0873792   0.0839528
  8980.25       0.262506       0.262506       0.262506       0.262506       0.132585       0.0732431
  8980.75       0.337412       0.337412       0.337412       0.337412       0.160695       0.0239219
  8981.25       0.423362       0.423362       0.423362       0.423362       0.156531      -0.0408409
  8981.75       0.494257       0.494257       0.494217       0.494217       0.119773      -0.062889
  8982.25       0.543363       0.622168       0.543282       0.622088       0.0935228  -0.0493444
  8982.75       0.588051       0.76391       0.58793       0.763789       0.0702854  -0.0588585
  8983.26       0.613859       0.783851       0.613697       0.783689       0.0344877  -0.0628897
  8983.76       0.622604       0.802798       0.622401       0.802595       0.00727615  -0.0332413
  8984.26       0.621149       0.820782       0.620906       0.820538       0.00118319   0.0104608
  8984.76       0.623791       0.837856       0.623506       0.837572       0.0177683   0.0378154
  8985.26       0.638969       0.853975       0.638644       0.853649       0.0391083   0.0394118
  8985.76       0.663012       0.869231       0.662646       0.868865       0.0572944   0.0332973
  8986.26       0.696435       0.883587       0.696027       0.883179       0.0725055   0.0256909
  8986.74       0.733676       0.896379       0.733229       0.895932       0.0823328   0.0184305
  8987.24       0.776759       0.909136       0.77627       0.908647       0.0904863   0.0221641
  8987.74       0.824515       0.921088       0.823985       0.920557       0.104583       0.0165612
  8988.24       0.881646       0.932243       0.881073       0.931671       0.107096      -0.013067
  8988.74       0.931921       0.942666       0.931307       0.942051       0.0914784  -0.0323228
  8989.25       0.973481       0.952361       0.972824       0.951704       0.0746467  -0.0332369
  8989.75        1.00686       0.961349        1.00616       0.96065       0.0581119  -0.0299893
  8990.25        1.03182       0.969658        1.03108       0.968917       0.0445404  -0.0195096
  8990.75        1.05158       0.977311        1.05079       0.976526       0.0385242  -0.00736467
  8991.25        1.07049       0.984329        1.06967       0.983502       0.037147  -0.00330571
  8991.76        1.0889       0.990752        1.08803       0.989882       0.0352027  -0.00424989
  8992.26        1.10587       0.996579        1.10496       0.995666       0.0328763  -0.00239162
  8992.76        1.12191        1.00185        1.12095        1.00089       0.0328017   0.0015499
  8993.26        1.13883        1.00659        1.13783        1.00559       0.0344338   0.00467418
  8993.74        1.15554        1.01058        1.1545        1.00954       0.0373665   0.00135196
  8994.24        1.17532        1.01435        1.17424        1.01326       0.035754  -0.0159908
  8994.74        1.19146        1.01764        1.19034        1.01652       0.0212974  -0.0329965
  8995.25        1.19672        1.0205        1.19555        1.01933       0.00259581  -0.0300693
  8995.75        1.19408        1.02295        1.19286        1.02173      -0.00894633  -0.0167348
  8996.25        1.18773        1.02499        1.18647        1.02374      -0.014221  -0.00776096
  8996.75        1.17979        1.02668        1.17848        1.02538      -0.0167453  -0.00487445
  8997.26        1.17089        1.02802        1.16954        1.02667      -0.0191242  -0.00779082
  8997.76        1.16055        1.02904        1.15916        1.02765      -0.0245821  -0.0132187
  8998.26        1.14616        1.02977        1.14473        1.02833      -0.0324196  -0.0120159
  8998.74        1.12886        1.0302        1.12738        1.02872      -0.0363277  -0.00218739
  8999.24        1.11065        1.03042        1.10913        1.0289      -0.034558   0.00209493
  8999.74        1.0941        1.03042        1.09253        1.02886      -0.0342204   0.0022456
  9000.25        1.0762        1.03022        1.07458        1.02861      -0.0322971   0.0114904
  9000.75        1.06158        1.02985        1.05992        1.02819      -0.0226519   0.00607368
  9002.76        1.01921        1.0271        1.01737        1.02526      -0.0170182   0.003874
  9004.75       0.993524        1.02355       0.991501        1.02152      -0.00715976   0.00458443
  9006.76       0.990559        1.02013       0.98835        1.01792       0.00132873   0.00238215
  9008.75       0.998842        1.01703       0.996447        1.01464       0.00237598  -0.000582944
  9010.74        1.00001        1.01419       0.997424        1.01161      -0.000989347  -0.00131197
  9012.76       0.994878        1.01157       0.992102        1.0088      -0.00288083  -0.00108149
  9014.75       0.988458        1.00923       0.98549        1.00626      -0.00532481  -0.00155387
  9016.74       0.973673        1.00712       0.97051        1.00396      -0.00906895  -0.00140097
  9018.76       0.952077        1.00521       0.948715        1.00185      -0.0109451   0.000117736
  9020.75       0.929732        1.00354       0.926171       0.99998      -0.00859627   0.00164321
  9022.75       0.917792        1.00208       0.914031       0.998318      -0.00439146   0.00205913
  9024.74       0.912213        1.00081       0.908249       0.99685      -0.000381981   0.00213483
  9026.74       0.916268       0.999737       0.912099       0.995568       0.00412906   0.00204417
  9028.74       0.928701       0.998838       0.924326       0.994463       0.00778079   0.00123997
  9030.76       0.947574       0.998101       0.942986       0.993513       0.00911808   0.000406066
  9032.76       0.965405       0.997535       0.960606       0.992736       0.00941537   0.000106612
  9034.76       0.985216       0.997121       0.980204       0.992109       0.00954432  -0.000173922
  9036.76        1.00358       0.996849       0.998355       0.991621       0.00871968  -0.000560536
  9038.74        1.01987       0.996712        1.01443       0.991269       0.00731641  -0.00079731
  9040.74        1.03267       0.996695        1.02701       0.991033       0.0055499  -0.000685069
  9042.74        1.04211       0.996794        1.03622       0.99091       0.0045721  -0.000409965
  9044.75        1.05099       0.996998        1.04489       0.99089       0.00390684  -0.000595822
  9046.75        1.05777       0.997298        1.05144       0.990964       0.00218297  -0.00104381
  9048.76        1.05975       0.997686        1.05319       0.991123      -0.0002806  -0.00113537
  9050.74        1.05665       0.998144        1.04986       0.991355      -0.00234069  -0.000780223
  9052.74        1.05042       0.998677        1.0434       0.991655      -0.0033908  -0.000224395
  9054.75        1.04303       0.999269        1.03578       0.992012      -0.003242   0.000136714
  9056.76        1.03739       0.999911        1.0299       0.992417      -0.0028414   0.000170922
  9058.75        1.03169        1.00058        1.02396       0.992854      -0.00255964   0.000135172
  9060.76        1.02717        1.0013        1.0192       0.993326      -0.00230152   0.000103143
  9062.74        1.02249        1.00202        1.01428       0.99381      -0.00214747   0.000145817
  9064.75        1.01858        1.00277        1.01013       0.994311      -0.00171852   0.00019368
  9066.74        1.01562        1.0035        1.00692       0.994806      -0.00137295   5.84821e-05
  9068.76        1.01309        1.00425        1.00414       0.995298      -0.00148454  -3.53337e-05
  9070.74        1.00968        1.00496        1.00048       0.995766      -0.00151439   5.39165e-05
  9072.76        1.00702        1.00567       0.997574       0.996217      -0.00126861   0.000116184
  9074.75        1.0046        1.00634       0.994892       0.996637      -0.00104886   0.000225674
  9076.74        1.00285        1.00699       0.992893       0.997035      -0.000370541   0.000374732
  9078.76        1.00311        1.00763       0.992891       0.997415       0.000454074   3.47101e-05
  9080.75        1.00467        1.00825       0.994196       0.997768      -0.00023126  -0.000315448
  9082.75        1.00219        1.00884       0.991449       0.9981      -0.000803113  -5.7209e-05
  9084.74        1.00147        1.00941       0.990469       0.99841      -0.000459369   5.43483e-05
  9086.76        1.00034        1.00997       0.989071       0.998704      -0.000584763   6.05924e-05
  9088.76       0.999121        1.01051       0.987583       0.998974      -0.000215872   0.000211115
  9090.76       0.99948        1.01103       0.987673       0.999224       0.000258049   9.53019e-05
  9092.75        1.00015        1.01153       0.988072       0.999455       0.000164773  -7.2495e-05
  9094.75        1.00014        1.01202       0.987785       0.999667      -3.16479e-05  -3.98292e-05
  9096.75        1.00002        1.01249       0.987396       0.999862       5.53224e-06  -3.68687e-05
  9098.75        1.00016        1.01295       0.987253        1.00004      -0.000179123  -9.4712e-05
  9100.75       0.999308        1.01339       0.986121        1.0002      -0.000373496  -9.06512e-06
  9102.75       0.998666        1.01381       0.985196        1.00034      -0.000215409   3.62421e-05
  9104.76       0.998445        1.01422       0.984691        1.00047      -0.00022835   0.000125964
  9106.76       0.997751        1.01462       0.983709        1.00058       0.000289304   0.000382676
  9108.74       0.999597        1.015       0.985271        1.00068       0.00129489   0.000137617
  9110.74        1.00291        1.01538       0.98829        1.00076       0.000837348  -0.000292065
  9112.75        1.00296        1.01574       0.988047        1.00083       0.000122921  -0.000284099
  9114.76        1.0034        1.01609       0.988195        1.00088      -0.000302939   1.7569e-05
  9116.74        1.00175        1.01643       0.98625        1.00093       0.000192974   0.000323973
  9118.75        1.00417        1.01675       0.988372        1.00096       0.000989488   0.000234808
  9120.76        1.00573        1.01707       0.989626        1.00097       0.00113679   0.000266629
  9122.74        1.00871        1.01738       0.99231        1.00098       0.00205416   0.000457426
  9124.75        1.01393        1.01768       0.997224        1.00098       0.00296384   5.7273e-05
  9126.74        1.02055        1.01797        1.00354        1.00096       0.00228303  -0.00037714
  9128.75        1.02306        1.01826        1.00574        1.00094       0.00145603  -0.000208734
  9130.74        1.02638        1.01853        1.00875        1.0009       0.0014481  -0.000167308
  9132.75        1.02885        1.01881        1.01091        1.00086       0.00078646  -0.000243175
  9134.74        1.02953        1.01907        1.01127        1.00081       0.000474668  -0.000180489
  9136.76        1.03075        1.01933        1.01218        1.00075       6.3636e-05  -0.000159634
  9138.75        1.02978        1.01958        1.01089        1.00069      -0.000164952  -3.13041e-06
  9140.74        1.0301        1.01983        1.01089        1.00062       5.11754e-05   5.82478e-06
  9142.76        1.02999        1.02008        1.01045        1.00054      -0.000141591  -0.000111496
  9144.75        1.02953        1.02032        1.00967        1.00046      -0.000396112   1.43303e-05
  9146.74        1.02841        1.02056        1.00822        1.00037      -8.44789e-05   0.000127305
  9148.74        1.02919        1.02079        1.00868        1.00028       0.000111493   8.2719e-05
  9150.76        1.02886        1.02103        1.00801        1.00018       0.000247853   3.74551e-05
  9152.76        1.03019        1.02126        1.00901        1.00008       0.000262047  -0.000206075
  9154.75        1.0299        1.02149        1.00839       0.999975      -0.000575025  -0.000351841
  9156.75        1.02789        1.02172        1.00604       0.99987      -0.00114324  -0.000147648
  9158.75        1.02533        1.02195        1.00314       0.999762      -0.00116504   2.16721e-05
  9160.75        1.02324        1.02218        1.0007       0.999654      -0.00105659   0.000156397
  9162.75        1.02111        1.02242       0.998235       0.999544      -0.000539608   0.000104417
  9164.75        1.02108        1.02265       0.997858       0.999434      -0.00063882  -0.000263787
  9166.75        1.01855        1.02289       0.994984       0.999324      -0.00159581  -0.000203581
  9168.75        1.01468        1.02313       0.990768       0.999215      -0.00145435   0.000256895
  9170.76        1.01272        1.02337       0.988456       0.999107      -0.000566483   0.000376165
  9172.76        1.01241        1.02362       0.987793       0.999001       5.32468e-05   0.000122495
  9174.74        1.01293        1.02387       0.987964       0.998898      -7.88926e-05   9.48958e-05
  9176.75        1.0121        1.02413       0.986769       0.998797       0.000431255   0.000246818
  9178.75        1.01467        1.02439       0.988976       0.998699       0.000911985   0.00019498
  9180.76        1.01576        1.02466       0.989709       0.998605       0.00121422   0.000111049
  9182.74        1.01951        1.02493       0.993097       0.998517       0.00135488   1.88417e-05
  9184.75        1.02117        1.02521       0.994389       0.998431       0.0012894  -9.6543e-05
  9186.76        1.02469        1.0255       0.997545       0.998349       0.00096673  -0.00026075
  9188.75        1.02503        1.02579       0.997515       0.998273       0.000247939  -0.000265517
  9190.76        1.02568        1.02609       0.997797       0.998199      -9.43028e-05  -7.50821e-05
  9192.74        1.02465        1.02639       0.996394       0.99813      -5.21718e-05   6.95908e-06
  9194.76        1.02548        1.0267       0.99684       0.998064      -6.64735e-05  -0.000166939
  9196.74        1.02439        1.02701       0.995376       0.998002      -0.000720076  -5.28276e-06
  9198.76        1.02259        1.02734       0.9932       0.997943      -8.76198e-05   0.000208063
  9200.75        1.02404        1.02766       0.994264       0.997889       0.000112985   5.16409e-05
  9202.74        1.02304        1.02799       0.99289       0.997838       0.000117735   3.53187e-05
  9204.76        1.02451        1.02833       0.993966       0.99779       0.000254571  -2.65623e-05
  9206.75        1.02406        1.02867       0.993136       0.997746       1.12258e-05  -6.84078e-05
  9208.74        1.02455        1.02902       0.993237       0.997705      -1.77946e-05  -2.24843e-05
  9210.76        1.02399        1.02938       0.992281       0.997668      -7.90171e-05   0.000122145
  9212.75        1.02423        1.02974       0.992132       0.997633       0.000472689   0.000316923
  9214.75        1.02588        1.0301       0.99338       0.997603       0.00118465   0.00017506
  9216.74        1.02896        1.03047       0.996067       0.997575       0.00117106  -2.76122e-05
  9218.74        1.03055        1.03084       0.997259       0.99755       0.00107444  -1.34858e-05
  9220.74        1.03325        1.03122       0.999558       0.997529       0.00111721  -9.15006e-05
  9222.76        1.03505        1.03161        1.00094       0.99751       0.000706207  -0.000126348
  9224.76        1.03609        1.032        1.00159       0.997494       0.000608605  -5.23113e-05
  9226.76        1.03748        1.03239        1.00257       0.997481       0.000497066  -0.000169215
  9228.76        1.03808        1.03279        1.00276       0.997471      -6.82547e-05  -0.000157587
  9230.76        1.03721        1.0332        1.00147       0.997464      -0.000133598   8.32903e-05
  9232.74        1.03755        1.0336        1.00141       0.997459       0.000262791   4.03107e-05
  9234.74        1.03825        1.03402        1.00169       0.997457       2.66608e-05  -0.000138266
  9236.74        1.03766        1.03444        1.00068       0.997457      -0.000291227   1.07781e-05
  9238.75        1.03708        1.03486       0.999685       0.99746       6.98671e-05   0.000121251
  9240.75        1.03794        1.03529        1.00012       0.997466       0.000195073   4.26491e-05
  9242.76        1.03787        1.03572       0.999619       0.997474       0.000241005   6.8939e-05
  9244.74        1.0389        1.03615        1.00023       0.997484       0.000469753   4.04867e-05
  9246.75        1.03974        1.03659        1.00064       0.997496       0.000402401   3.91691e-05
  9248.76        1.04051        1.03704        1.00099       0.997511       0.000627119   9.6325e-05
  9250.74        1.04224        1.03748        1.00228       0.997528       0.000786757   1.31232e-05
  9252.75        1.04366        1.03794        1.00326       0.997547       0.000679508  -7.14674e-05
  9254.76        1.04497        1.0384        1.00414       0.997568       0.00049928  -7.21474e-05
  9256.74        1.04565        1.03886        1.00438       0.997591       0.000391265  -4.46235e-05
  9258.76        1.04654        1.03932        1.00483       0.997616       0.00032092  -6.96703e-05
  9260.74        1.04693        1.03979        1.00479       0.997643       0.000112654  -5.76259e-05
  9262.76        1.04699        1.04027        1.00439       0.997671       9.03585e-05  -1.44845e-05
  9264.74        1.0473        1.04074        1.00426       0.997702       5.4688e-05  -2.9407e-05
  9266.76        1.04721        1.04122        1.00372       0.997734      -2.73842e-05  -3.83175e-05
  9268.75        1.04719        1.0417        1.00325       0.997767      -9.8808e-05  -7.62242e-05
  9270.74        1.04682        1.04219        1.00243       0.997802      -0.000330573  -6.47106e-05
  9272.76        1.04586        1.04268        1.00101       0.997839      -0.000358285   2.71613e-05
  9274.75        1.04538        1.04318        1.00008       0.997877      -0.00022161   6.76815e-05
  9276.74        1.04498        1.04367       0.999221       0.997917      -8.86822e-05   7.10046e-05
  9278.74        1.04502        1.04417       0.99881       0.997958       6.13642e-05   7.47579e-05
  9280.76        1.04522        1.04468       0.998542       0.998       0.00021159   6.9764e-05
  9282.75        1.04587        1.04519       0.99873       0.998044       0.000341648   2.59599e-05
  9284.75        1.04659        1.0457       0.998977       0.998088       0.000315175  -2.53213e-05
  9286.75        1.04713        1.04621       0.999056       0.998134       0.00024056   5.63823e-06
  9288.74        1.04755        1.04673       0.999001       0.99818       0.00033769   3.32543e-05
  9290.74        1.04848        1.04725       0.999464       0.998228       0.000373448  -3.25782e-05
  9292.74        1.04904        1.04777       0.999548       0.998277       0.000207442  -3.92555e-05
  9294.74        1.04931        1.0483       0.999343       0.998326       0.000216465   1.53724e-05
  9296.74        1.04991        1.04882       0.999459       0.998377       0.000268932   2.19052e-05
  9298.74        1.05039        1.04936       0.99946       0.998428       0.000304129  -3.77831e-06
  9300.75        1.05112        1.04989       0.999713       0.998479       0.0002538  -2.95156e-05
  9302.75        1.05141        1.05043       0.999509       0.998532       0.000185866  -6.52484e-05
  9304.75        1.05187        1.05097       0.999486       0.998585      -7.70253e-06  -6.98975e-05
  9306.76        1.05137        1.05151       0.998501       0.998639      -9.43391e-05   1.38515e-05
  9308.74        1.05149        1.05205       0.998136       0.998692       4.74473e-05   3.89315e-05
  9310.74        1.05156        1.0526       0.997711       0.998746       6.07408e-05  -2.5515e-05
  9312.75        1.05174        1.05315       0.997389       0.998801      -5.49853e-05  -5.11903e-05
  9314.76        1.05134        1.0537       0.996495       0.998857      -0.00014487   3.74819e-05
  9316.74        1.05116        1.05425       0.995819       0.998911       9.45413e-05   9.95516e-05
  9318.75        1.05172        1.05481       0.995876       0.998967       0.000252361   6.2075e-05
  9320.76        1.05217        1.05537       0.995825       0.999023       0.00034417   3.75016e-05
  9322.74        1.05309        1.05593       0.996244       0.999078       0.00040215   2.31959e-05
  9324.76        1.05378        1.05649       0.996422       0.999133       0.000436842   1.73139e-05
  9326.74        1.05484        1.05705       0.996976       0.999188       0.000471353   1.29263e-05
  9328.75        1.05567        1.05762       0.997287       0.999244       0.000488534  -3.16984e-06
  9330.74        1.05679        1.05819       0.997907       0.999299       0.000458671  -2.48392e-05
  9332.76        1.0575        1.05876       0.998095       0.999354       0.000389105  -4.21018e-05
  9334.75        1.05835        1.05933       0.998433       0.999408       0.000290099  -3.39959e-05
  9336.76        1.05866        1.05991       0.99822       0.999463       0.000252921  -3.0367e-05
  9338.75        1.05937        1.06048       0.998405       0.999517       0.000168394  -1.71101e-05
  9340.74        1.05933        1.06105       0.997852       0.99957       0.000184832   3.53101e-05
  9342.76        1.06011        1.06164       0.998095       0.999623       0.000310048  -1.76721e-05
  9344.76        1.06058        1.06221       0.998041       0.999676       0.000113919  -6.98646e-05
  9346.75        1.06056        1.06279       0.997498       0.999728       3.16794e-05   2.49343e-05
  9348.74        1.0607        1.06337       0.997111       0.99978       0.000213314   0.000100588
  9350.74        1.06141        1.06396       0.997288       0.999831       0.000432854   1.59541e-05
  9352.76        1.06245        1.06455       0.997778       0.999883       0.000277457  -6.7273e-05
  9354.76        1.06253        1.06514       0.997326       0.999933       0.000162316   6.93067e-06
  9356.76        1.06309        1.06572       0.997352       0.999983       0.000305133   7.81316e-05
  9358.75        1.06375        1.06631       0.997466        1.00003       0.000474459   3.96332e-05
  9360.75        1.06499        1.06691       0.998166        1.00008       0.000463547   1.96983e-05
  9362.75        1.0656        1.0675       0.998232        1.00013       0.000553233   3.33484e-05
  9364.75        1.0672        1.06809       0.999286        1.00018       0.00059694  -3.23464e-05
  9366.75        1.06799        1.06869       0.999524        1.00023       0.000423782  -2.60801e-05
  9368.76        1.0689        1.06929       0.999882        1.00027       0.000492518   6.23639e-05
  9370.76        1.06996        1.06989        1.00039        1.00032       0.000673543   4.34495e-06
  9372.76        1.0716        1.07049        1.00147        1.00037       0.000509932  -0.000102098
  9374.74        1.07199        1.07109        1.00131        1.00041       0.000267243  -3.76661e-05
  9376.75        1.07266        1.07169        1.00142        1.00045       0.000360002   9.9689e-05
  9378.75        1.07344        1.0723        1.00163        1.0005       0.000667265   8.89786e-05
  9380.76        1.07534        1.07291        1.00297        1.00054       0.000717135  -7.37495e-05
  9382.74        1.07629        1.07351        1.00337        1.00059       0.000373351  -0.000123333
  9384.75        1.07683        1.07412        1.00333        1.00063       0.00022537  -4.25291e-05
  9386.76        1.0772        1.07474        1.00313        1.00067       0.000202406   2.14667e-05
  9388.74        1.07764        1.07534        1.003        1.00071       0.000311048   2.01886e-05
  9390.75        1.07844        1.07596        1.00323        1.00075       0.000283002   2.53629e-05
  9392.76        1.07878        1.07658        1.00299        1.00079       0.000413118   1.58907e-05
  9394.75        1.08009        1.07719        1.00373        1.00083       0.000346503  -6.96553e-05
  9396.76        1.08016        1.07781        1.00321        1.00087       0.000134629  -5.5795e-05
  9398.75        1.08063        1.07843        1.00311        1.0009       0.000123323   1.84905e-05
  9400.76        1.08065        1.07905        1.00254        1.00094       0.000208627   4.06785e-05
  9402.75        1.08147        1.07967        1.00277        1.00097       0.000286155   4.96745e-05
  9404.74        1.08179        1.08029        1.00251        1.00101       0.000406018   3.96329e-05
  9406.75        1.08309        1.08092        1.00322        1.00104       0.00044496  -2.40472e-05
  9408.74        1.08358        1.08154        1.00311        1.00108       0.00030962  -4.34517e-05
  9410.76        1.08434        1.08217        1.00327        1.00111       0.000270732  -4.3197e-05
  9412.76        1.08466        1.08279        1.00301        1.00114       0.000136322  -7.31447e-05
  9414.75        1.08488        1.08342        1.00263        1.00117      -2.0567e-05  -1.18119e-05
  9416.74        1.08458        1.08405        1.00173        1.0012       8.92602e-05   9.87118e-05
  9418.76        1.08524        1.08468        1.00178        1.00123       0.000376008   6.42541e-05
  9420.76        1.08609        1.08531        1.00203        1.00126       0.000347472  -9.00102e-05
  9422.75        1.08662        1.08595        1.00196        1.00128       1.69298e-05  -9.33629e-05
  9424.75        1.08616        1.08658        1.00089        1.00131      -2.51581e-05   6.98769e-05
  9426.75        1.08652        1.08721        1.00065        1.00134       0.000295962   6.06579e-05
  9428.75        1.08734        1.08785        1.00085        1.00136       0.000217176  -5.26109e-05
  9430.74        1.08739        1.08849        1.00029        1.00138       8.56767e-05  -4.36852e-05
  9432.74        1.08768        1.08912       0.999966        1.00141       4.24792e-05   3.0928e-05
  9434.74        1.08756        1.08976       0.999225        1.00143       0.000209389   2.56296e-05
  9436.75        1.08852        1.0904       0.999566        1.00145       0.000145023   1.07475e-05
  9438.75        1.08814        1.09105       0.998563        1.00147       0.000252421   0.000107024
  9440.75        1.08953        1.09169       0.999329        1.00149       0.00057375   5.60347e-05
  9442.75        1.09044        1.09233       0.999609        1.0015       0.000476946  -0.000108052
  9444.76        1.09144        1.09298       0.999985        1.00152       0.00014059  -7.40817e-05
  9446.73        1.091        1.09362       0.998917        1.00153       0.000182138   5.36393e-05
  9448.74        1.09217        1.09426       0.999454        1.00155       0.000354149   3.58174e-05
  9450.75        1.09242        1.09491       0.999069        1.00156       0.00032593   8.13625e-06
  9452.76        1.09348        1.09556       0.999487        1.00157       0.000386821  -4.39622e-06
  9454.74        1.09396        1.09621       0.999341        1.00158       0.000308405  -1.94607e-05
  9456.75        1.09471        1.09686       0.999443        1.00159       0.000309206   2.22704e-05
  9458.76        1.09521        1.09751       0.999295        1.0016       0.000397963   4.45979e-05
  9460.74        1.0963        1.09816       0.999748        1.00161       0.00048725  -5.07898e-06
  9462.75        1.09715        1.09881       0.999953        1.00161       0.000377682  -3.15029e-05
  9464.76        1.09782        1.09947       0.999966        1.00162       0.000360406  -1.18708e-05
  9466.75        1.09859        1.10012        1.0001        1.00162       0.000330233   2.83317e-05
  9468.76        1.09914        1.10078       0.999984        1.00163       0.000473676   9.33613e-05
  9470.75        1.10049        1.10143        1.00068        1.00163       0.000703679   4.30975e-05
  9472.76        1.10196        1.10209        1.00149        1.00163       0.000646191  -5.95908e-05
  9474.75        1.10307        1.10275        1.00196        1.00163       0.000465083  -8.46835e-05
  9476.74        1.1038        1.1034        1.00203        1.00162       0.0003096  -5.33634e-05
  9478.76        1.10432        1.10406        1.00187        1.00162       0.000251213  -4.33824e-06
  9480.75        1.10481        1.10472        1.00171        1.00161       0.000292209   1.61264e-05
  9482.74        1.10548        1.10538        1.00171        1.00161       0.000315388   8.77939e-06
  9484.76        1.10608        1.10605        1.00163        1.0016       0.000327438  -1.18252e-05
  9486.75        1.10679        1.1067        1.00168        1.00159       0.000267915  -9.75145e-06
  9488.75        1.10714        1.10736        1.00136        1.00158       0.000288585  -3.35719e-07
  9490.74        1.10794        1.10802        1.00149        1.00157       0.000266576  -1.25565e-05
  9492.76        1.10822        1.1087        1.00108        1.00156       0.000238113   1.68178e-07
  9494.76        1.1089        1.10936        1.00108        1.00154       0.000267253   2.91497e-05
  9496.76        1.10928        1.11002        1.00079        1.00153       0.000354485   1.26675e-05
  9498.75        1.11032        1.11069        1.00114        1.00151       0.000317848  -3.77313e-05
  9500.75        1.11055        1.11135        1.00069        1.00149       0.000203741  -2.28567e-05
  9502.75        1.11113        1.11202        1.00058        1.00147       0.000226487   6.21801e-06
  9504.75        1.11146        1.11268        1.00022        1.00145       0.0002286   2.95109e-05
  9506.75        1.11205        1.11335        1.00012        1.00143       0.000344531   6.45604e-05
  9508.75        1.11284        1.11402        1.00022        1.0014       0.000486971   2.12022e-05
  9510.75        1.114        1.11469        1.00068        1.00137       0.000429422  -1.59192e-05
  9512.76        1.11456        1.11536        1.00054        1.00135       0.000423202  -2.34528e-05
  9514.76        1.11569        1.11603        1.00098        1.00132       0.000335451  -9.68115e-05
  9516.74        1.11589        1.11669        1.00049        1.00129       3.81245e-05  -6.87478e-05
  9518.74        1.11584        1.11737       0.999732        1.00125       6.18694e-05   2.7964e-05
  9520.75        1.11614        1.11804       0.999321        1.00122       0.000150333   3.82626e-05
  9522.75        1.11645        1.11871       0.998919        1.00119       0.000215444   5.87261e-05
  9524.76        1.117        1.11939       0.998765        1.00115       0.000386159   1.83043e-05
  9526.74        1.11799        1.12005       0.999043        1.00111       0.00028841  -3.41657e-05
  9528.75        1.11815        1.12073       0.998496        1.00107       0.000249896   9.16431e-06
  9530.76        1.11899        1.12141       0.998613        1.00103       0.000325265   4.16605e-05
  9532.74        1.11945        1.12207       0.998365        1.00099       0.000416172   5.14895e-05
  9534.76        1.12065        1.12275       0.998841        1.00094       0.000530873   1.34588e-05
  9536.74        1.12157        1.12342       0.999048        1.00089       0.000469927  -4.89041e-05
  9538.75        1.12253        1.1241       0.999276        1.00085       0.000335447   1.1645e-05
  9540.74        1.12291        1.12477       0.998942        1.0008       0.000516485   9.21064e-05
  9542.75        1.1246        1.12545       0.99989        1.00075       0.000703873  -9.02582e-06
  9544.74        1.12573        1.12612        1.0003        1.00069       0.000480365  -7.35936e-05
  9546.75        1.12652        1.12681        1.00035        1.00064       0.000409285  -9.34086e-06
  9548.74        1.12737        1.12748        1.00047        1.00059       0.000442956   4.07552e-05
  9550.76        1.12829        1.12817        1.00066        1.00053       0.000572583   3.9747e-05
  9552.75        1.12967        1.12885        1.00129        1.00048       0.000602293  -7.22728e-05
  9554.74        1.13069        1.12952        1.00158        1.00042       0.000285045  -8.49884e-05
  9556.76        1.13081        1.13022        1.00095        1.00036       0.000261346   4.22044e-05
  9558.75        1.13174        1.1309        1.00114        1.0003       0.000454441   3.9488e-05
  9560.75        1.13262        1.13158        1.00128        1.00024       0.000418642  -4.84565e-06
  9562.74        1.13341        1.13227        1.00132        1.00018       0.000435129   1.11589e-05
  9564.76        1.13437        1.13296        1.00153        1.00012       0.000463484   2.63005e-06
  9566.76        1.13527        1.13365        1.00168        1.00006       0.000445703  -7.5184e-06
  9568.75        1.13615        1.13434        1.0018       0.999998       0.000433484  -3.8163e-05
  9570.75        1.137        1.13503        1.0019       0.999937       0.000293349  -4.45822e-05
  9572.75        1.13732        1.13573        1.00146       0.999875       0.000255418   3.0287e-05
  9574.75        1.13802        1.13642        1.00141       0.999812       0.000414348   6.51797e-05
  9576.75        1.13897        1.13712        1.0016       0.99975       0.000515947   2.74784e-05
  9578.75        1.14008        1.13782        1.00195       0.999687       0.000524234  -3.16114e-06
  9580.75        1.14107        1.13853        1.00217       0.999624       0.0005033  -1.04623e-05
  9582.75        1.1421        1.13923        1.00243       0.999562       0.000482355  -6.54069e-06
  9584.75        1.143        1.13994        1.00256       0.999499       0.000477111  -4.57126e-05
  9586.75        1.14401        1.14065        1.0028       0.999437       0.000299235  -8.10576e-05
  9588.76        1.1442        1.14136        1.00221       0.999375       0.000152249   3.18425e-06
  9590.76        1.14462        1.14208        1.00185       0.999313       0.000312   5.05338e-05
  9592.74        1.14544        1.14279        1.00191       0.999252       0.000353348   6.1217e-06
  9594.75        1.14603        1.14351        1.00171       0.999191       0.000336373   1.8891e-05
  9596.75        1.14679        1.14423        1.00169       0.999131       0.000429171   7.54274e-06
  9598.76        1.14775        1.14496        1.00186       0.999071       0.000366662  -6.2592e-05
  9600.74        1.14826        1.14568        1.00159       0.999012       0.00017966  -3.80584e-05
  9602.75        1.14847        1.14641        1.00101       0.998954       0.000214911   4.13473e-05
  9604.76        1.14912        1.14715        1.00087       0.998896       0.000345938   3.81253e-05
  9606.74        1.14985        1.14787        1.00081       0.99884       0.000367081   1.34217e-05
  9608.75        1.15059        1.14862        1.00075       0.998784       0.000399521  -3.66204e-05
  9610.77        1.15146        1.14936        1.00082       0.998729       0.000219636  -2.26004e-05
  9612.75        1.15146        1.1501        1.00004       0.998675       0.00030921   7.6658e-05
  9614.76        1.15269        1.15085        1.00046       0.998623       0.000526123   2.34227e-05
  9616.75        1.15357        1.1516        1.00054       0.998572       0.0004029  -4.63665e-05
  9618.76        1.15431        1.15236        1.00047       0.998521       0.000340615  -2.39651e-07
  9620.75        1.15493        1.15311        1.00029       0.998473       0.000401941  -3.19094e-05
  9622.74        1.1559        1.15387        1.00046       0.998426       0.000213848  -5.4641e-05
  9624.76        1.15579        1.15464       0.999528       0.99838       0.00018306   6.86859e-05
  9626.75        1.15664        1.1554       0.99957       0.998336       0.000489128   6.5816e-05
  9628.73        1.15773        1.15617       0.999857       0.998294       0.00044485  -5.47456e-05
  9630.76        1.15842        1.15695       0.999719       0.998253       0.000269505  -5.72243e-05
  9632.75        1.15881        1.15773       0.999299       0.998214       0.000215174  -1.08965e-05
  9634.74        1.15928        1.15851       0.998945       0.998177       0.00022611   5.75845e-05
  9636.76        1.15972        1.15931       0.998558       0.998141       0.000446468   3.76063e-05
  9638.76        1.16107        1.16009       0.999085       0.998108       0.000377231  -8.4956e-05
  9640.75        1.16123        1.16089       0.998417       0.998076       0.000107715  -3.57693e-05
  9642.75        1.1615        1.16168       0.997865       0.998047       0.000234536   7.4882e-05
  9644.74        1.16216        1.16248       0.997699       0.99802       0.000406584   6.78725e-05
  9646.74        1.16312        1.16329       0.997829       0.997996       0.000505558  -6.38387e-06
  9648.74        1.16418        1.1641       0.998054       0.997973       0.000381086  -4.72124e-05
  9650.74        1.16465        1.16492       0.997683       0.997953       0.000316892  -4.44286e-06
  9652.74        1.16545        1.16574       0.997647       0.997935       0.000363323  -9.47813e-06
  9654.74        1.1661        1.16656       0.997458       0.99792       0.000278988  -1.56562e-06
  9656.74        1.16657        1.16739       0.99708       0.997908       0.000357059   4.02431e-05
  9658.74        1.16753        1.16823       0.997199       0.997898       0.000440077   2.56902e-05
  9660.74        1.16833        1.16907       0.99715       0.99789       0.000459946  -1.04688e-05
  9662.75        1.16937        1.16991       0.997344       0.997886       0.000398131  -3.00279e-05
  9664.75        1.16992        1.17077       0.997043       0.997885       0.00033957  -2.54704e-05
  9666.75        1.17073        1.17162       0.996999       0.997886       0.000296  -2.7119e-05
  9668.76        1.17111        1.17248       0.996519       0.99789       0.000230804  -4.1022e-05
  9670.74        1.17165        1.17334       0.996215       0.997898       0.000132712  -4.12321e-06
  9672.74        1.17164        1.17421       0.99534       0.997908       0.000214383   8.37659e-05
  9674.75        1.17251        1.17509       0.99535       0.997922       0.000469166   5.87148e-05
  9676.76        1.17353        1.17597       0.995494       0.997939       0.000450329  -2.50472e-05
  9678.74        1.17431        1.17685       0.995424       0.99796       0.000369295   6.03074e-05
  9680.75        1.175        1.17774       0.995241       0.997983       0.000690913   5.38558e-05
  9682.76        1.17709        1.17864       0.996458       0.998011       0.000585978  -0.000133772
  9684.74        1.17734        1.17953       0.995844       0.998041       0.000156869  -4.81044e-05
  9686.76        1.17772        1.18045       0.995344       0.998076       0.000393845   7.58525e-05
  9688.74        1.17891        1.18135       0.995672       0.998114       0.000459983  -3.20733e-05
  9690.75        1.17956        1.18228       0.995432       0.998156       0.000265613  -3.92546e-05
  9692.74        1.17997        1.1832       0.99498       0.998201       0.000303003   6.74471e-06
  9694.76        1.18077        1.18413       0.994885       0.998251       0.000292598  -1.62716e-05
  9696.74        1.18114        1.18506       0.994386       0.998305       0.00023787  -8.54614e-07
  9698.76        1.18172        1.18601       0.994068       0.998363       0.000289176   6.2176e-05
  9700.75        1.1823        1.18696       0.99377       0.998424       0.000486941   9.46455e-05
  9702.74        1.18366        1.18791       0.994239       0.998489       0.000665449   5.07274e-05
  9704.76        1.18497        1.18888       0.994654       0.99856       0.000690342  -3.08491e-05
  9706.75        1.18642        1.18984       0.995219       0.998634       0.000541723  -1.8748e-05
  9708.74        1.18713        1.19081       0.995032       0.998712       0.000615716   1.83601e-05
  9710.76        1.1889        1.1918       0.995892       0.998796       0.000615431   6.60163e-06
  9712.75        1.1896        1.19278       0.9957       0.998884       0.000642225   0.000111358
  9716.74        1.19274        1.19477       0.997039       0.999072       0.0012813   0.000165069
  9718.73        1.19726        1.19577        1.00066       0.999173       0.00162959  -0.000145617
  9720.76        1.19929        1.1968        1.00177       0.999281       0.000695553  -0.00022841
  9722.76        1.20006        1.19782        1.00164       0.999392       0.00071037  -2.81796e-05
  9724.76        1.20213        1.19885        1.00279       0.999508       0.000583001  -1.11647e-05
  9726.75        1.20239        1.19988        1.00214       0.999629       0.000665755  -5.64535e-06
  9728.75        1.20479        1.20092        1.00363       0.999755       0.000560442  -7.42627e-05
  9730.75        1.20463        1.20197        1.00255       0.999886       0.000368853   0.000122356
  9732.75        1.20626        1.20302        1.00326        1.00002       0.00104999   0.000131502
  9734.75        1.20883        1.20409        1.00491        1.00016       0.000895124  -0.000156745
  9736.76        1.20985        1.20516        1.005        1.00031       0.000422556  -0.000154634
  9738.76        1.21053        1.20624        1.00475        1.00046       0.000275691  -3.16479e-05
  9740.76        1.21095        1.20733        1.00425        1.00062       0.000295717   4.90024e-05
  9742.74        1.2117        1.2084        1.00408        1.00078       0.000470505   6.74573e-05
  9744.74        1.21282        1.20951        1.00427        1.00095       0.000564036  -6.00744e-05
  9746.75        1.21397        1.21062        1.00448        1.00113       0.000229505  -7.43809e-05
  9748.76        1.21375        1.21174        1.00332        1.00131       0.000265493   9.26872e-05
  9750.76        1.21503        1.21287        1.00366        1.0015       0.000601708   0.000134003
  9752.74        1.21614        1.21398        1.00385        1.00169       0.00079928  -2.04537e-05
  9754.75        1.21822        1.21513        1.00497        1.00188       0.000520194  -7.65601e-05
  9756.76        1.21823        1.21628        1.00404        1.00209       0.000491471   7.42911e-05
  9758.74        1.22018        1.21742        1.00505        1.0023       0.000816564  -8.43574e-06
  9760.75        1.22149        1.2186        1.00541        1.00251       0.000457802  -0.000108894
  9762.76        1.22202        1.21977        1.00498        1.00274       0.000378223  -3.10233e-05
  9764.75        1.223        1.22094        1.00502        1.00297       0.000333892   3.93169e-05
  9766.76        1.22336        1.22214        1.00442        1.0032       0.000535337   7.79172e-06
  9768.74        1.22514        1.22333        1.00526        1.00344       0.000365036  -0.000174593
  9770.76        1.22481        1.22454        1.00396        1.00369      -0.00016286  -0.000261775